,trial,start_time,end_time,key,reaction_time
0,buidels_audio,3.2618534000066575,4.55362970000715,y,1.2917763000004925
1,hese_audio,5.095040300002438,6.5543792999960715,m,1.4593389999936335
2,imams_audio,7.073041099996772,8.24121350000496,m,1.1681724000081886
3,polders_audio,8.75509590000729,9.705910300006508,m,0.9508143999992171
4,ponten_audio,10.22000929999922,11.122579500006395,m,0.902570200007176
5,puien_audio,11.635135999997146,12.616977500001667,y,0.9818415000045206
6,rafel_audio,13.134796300000744,14.32932659999642,y,1.1945302999956766
7,ratels_audio,14.847807800004375,16.239429299996118,y,1.391621499991743
8,reigers_audio,16.788222200004384,17.982797999997274,y,1.19457579999289
9,sikkels_audio,18.49420509999618,19.6395310999942,y,1.1453259999980219
10,stekken_audio,20.15841360000195,21.8483203999931,m,1.6899067999911495
11,barse_audio,22.37701680000464,23.643344600001,y,1.2663277999963611
12,gevels_audio,24.153515800004243,25.386838299993542,y,1.233322499989299
13,juffen_audio,25.901455500003067,26.947655299998587,y,1.0461997999955202
14,karpers_audio,27.468639099999564,28.57115079999494,y,1.1025116999953752
15,snert_audio,29.081789200005005,30.27475250000134,y,1.192963299996336
16,clusters_audio,30.796785099999397,32.04175839999516,y,1.2449732999957632
17,deun_audio,32.56038670000271,33.683031599997776,m,1.1226448999950662
18,etui_audio,34.19152579999354,35.2588390000019,m,1.067313200008357
19,schoffels_audio,35.773582399997395,36.76118529999803,y,0.9876029000006383
20,schuiten_audio,37.28055310000491,38.34479970000393,y,1.0642465999990236
21,spurt_audio,38.86442490000627,40.08773179999844,y,1.223306899992167
22,strotten_audio,40.60116210000706,41.77774849999696,y,1.176586399989901
23,wrongel_audio,42.308291099994676,43.791726900002686,m,1.4834358000080101
24,ambten_audio,44.313437200005865,45.50069800000347,y,1.1872607999976026
25,beitels_audio,46.0115414000029,47.475480699999025,y,1.4639392999961274
26,flans_audio,47.99345369999355,49.41140909999376,m,1.41795540000021
27,klavier_audio,49.92415780000738,50.87618520000251,m,0.9520273999951314
28,lanen_audio,51.38824050000403,52.74495500000194,y,1.3567144999979064
29,oker_audio,53.253185399997164,54.29942209999717,m,1.0462367000000086
30,porde_audio,54.81778660000418,56.087958400006755,y,1.2701718000025721
31,suste_audio,56.5990587999986,57.61835049999354,m,1.0192916999949375
32,woei_audio,58.132127200005925,58.93723589999718,y,0.8051086999912513
33,gonsde_audio,59.44639339999412,61.28775509999832,y,1.8413617000041995
34,margriet_audio,61.82021619999432,63.71541129999969,y,1.8951951000053668
35,metrum_audio,64.22515569999814,65.2931310999993,m,1.0679754000011599
36,rogge_audio,65.80516170000192,66.71838190000562,m,0.9132202000037069
37,sfinxen_audio,67.23729790000652,68.214413099995,m,0.9771151999884751
38,sjalot_audio,68.7364985000022,69.69479940000747,m,0.9583009000052698
39,topaas_audio,70.21748770000704,71.62109739999869,m,1.403609699991648
40,zolders_audio,72.13139359999332,73.29054610000458,y,1.1591525000112597
41,lome_audio,73.81442500000412,74.87721550000424,m,1.0627905000001192
42,stengels_audio,75.3955588999961,76.53215879999334,m,1.1365998999972362
43,stram_audio,77.04254110000329,78.16393140000582,m,1.1213903000025311
44,grief_audio,78.67299940000521,79.64214379999612,y,0.9691443999909097
45,lijsters_audio,80.15682309999829,81.6245246000035,y,1.4677015000052052
46,venkel_audio,82.1380921999953,83.39180470000429,y,1.2537125000089873
47,balkons_audio,83.90175869999803,85.0792827999976,y,1.177524099999573
48,bonkte_audio,85.59992459999921,86.83069679999608,y,1.2307721999968635
49,gisten_audio,87.3483128999942,89.03602850000607,y,1.6877156000118703
50,plan_audio,89.54539189999923,91.28149550000671,y,1.7361036000074819
51,hield_audio,91.79301389999455,93.06460919999518,y,1.2715953000006266
52,boek_audio,93.57343049999326,94.45135600000503,m,0.87792550001177
53,baby_audio,94.97147140000015,95.69252450000204,m,0.7210531000018818
54,recht_audio,96.20374690000608,97.48954569999478,y,1.2857987999886973
55,hard_audio,98.00247399999353,99.18689009999798,m,1.184416100004455
56,reden_audio,99.70129260000249,100.51628460000211,m,0.81499199999962
57,heren_audio,101.03211329999613,102.33678749999672,y,1.3046742000005906
58,redden_audio,102.84675589999824,103.77113069999905,m,0.9243748000008054
59,vallen_audio,104.29500949999783,105.07029849999526,m,0.7752889999974286
60,los_audio,105.59987109999929,106.91268209999544,y,1.3128109999961453
61,gaf_audio,107.43341620000137,108.80928659999336,m,1.3758703999919817
62,begin_audio,109.32217860000674,110.18600299999525,m,0.8638243999885162
63,bezig_audio,110.70444139999745,111.67417500000738,m,0.9697336000099313
64,zoek_audio,112.18553410000459,113.04334980000567,m,0.8578157000010833
65,wakker_audio,113.55023389999405,114.35581459999958,m,0.8055807000055211
66,plaats_audio,114.86641879999661,115.96377129999746,m,1.0973525000008522
67,soort_audio,116.48117379999894,118.58429040000192,m,2.103116600002977
68,sta_audio,119.09625400000368,120.71513490000507,y,1.6188809000013862
69,juist_audio,121.22552350000478,122.14210670000466,m,0.9165831999998773
70,ogen_audio,122.65726760000689,124.05420250000316,m,1.3969348999962676
71,lekker_audio,124.57146219999413,125.50145060000068,m,0.9299884000065504
72,gemaakt_audio,126.02225920000637,127.21988710000005,m,1.1976278999936767
73,help_audio,127.7605620999966,128.6366488000058,m,0.8760867000091821
74,vroeg_audio,129.14984349999577,130.06181970000034,m,0.9119762000045739
75,wachten_audio,130.58236990000296,131.39853679999942,m,0.8161668999964604
76,hen_audio,131.91269300000567,133.38183549999667,m,1.469142499990994
77,open_audio,133.89714990000357,134.88530550000723,m,0.9881556000036653
78,uur_audio,135.40949530000216,136.16624970000703,m,0.7567544000048656
79,eigen_audio,136.67308259999845,137.6387958999985,m,0.9657133000000613
80,krijg_audio,138.15522099999362,139.3510871000035,m,1.19586610000988
81,morgen_audio,139.8693413000001,140.82282739999937,m,0.9534860999992816
82,vraag_audio,141.36060869999346,142.28797770000529,m,0.9273690000118222
83,auto_audio,142.80124169999908,143.65968650000286,m,0.858444800003781
84,zag_audio,144.19119339999452,145.2564057999989,m,1.065212400004384
85,idee_audio,145.76300390000688,146.53854009999486,m,0.7755361999879824
86,ging_audio,147.06347310000274,147.89020690000325,m,0.8267338000005111
87,werd_audio,148.41063179999765,149.9021916000056,y,1.4915598000079626
88,geweest_audio,150.44596009999805,151.4407099999953,m,0.9947498999972595
89,wist_audio,151.95629450000706,152.8335975999944,m,0.8773030999873299
90,hele_audio,153.3563725999993,154.75368419999722,m,1.39731159999792
91,moeder_audio,155.2720701000071,156.0490676000045,m,0.7769974999973783
92,dacht_audio,156.56862479999836,157.26559789999737,m,0.6969730999990134
93,gedaan_audio,157.783328599995,158.61818889999995,m,0.8348603000049479
94,dood_audio,159.13056869999855,159.93125500000315,m,0.8006863000045996
95,zit_audio,160.4473430000071,161.44298999999592,m,0.9956469999888213
96,zeg_audio,161.9605248000007,162.81953239999712,m,0.8590075999964029
97,had_audio,163.34533890000603,164.31554250000045,m,0.9702035999944201
98,bij_audio,164.82564759999514,165.97333069999877,m,1.1476831000036327
99,kom_audio,166.49520920000214,167.19058019999648,m,0.6953709999943385
100,millag_audio,167.7257302000071,168.59676080000645,m,0.871030599999358
101,labber_audio,169.1210432999942,170.15669340000022,m,1.0356501000060234
102,brum_audio,170.66847980000603,171.92379719999735,m,1.255317399991327
103,goont_audio,172.43228480000107,173.91623240000627,y,1.4839476000051945
104,jugen_audio,174.43408679999993,175.4878994000028,y,1.053812600002857
105,slont_audio,175.99584879999747,177.32089930000075,m,1.3250505000032717
106,gals_audio,177.84272859999328,178.98416469999938,m,1.1414361000061035
107,geslonden_audio,179.53475780000736,180.67946369999845,m,1.144705899991095
108,giep_audio,181.18868570000632,182.09587990000728,m,0.9071942000009585
109,women_audio,182.60415850000572,183.72537070000544,y,1.121212199999718
110,kormel_audio,184.23487410000234,185.2053184999968,y,0.9704443999944488
111,breent_audio,185.71656679999433,186.86116570000013,y,1.1445989000058034
112,vroel_audio,187.38232109999808,188.42273690000002,m,1.040415800001938
113,gesmalpt_audio,188.9464345000015,190.39908659999492,y,1.4526520999934291
114,liek_audio,190.91259789999458,192.05878680000023,y,1.1461889000056544
115,plenk_audio,192.5758174000075,193.76152020000154,y,1.1857027999940328
116,groeken_audio,194.27791410000646,195.32948830000532,y,1.0515741999988677
117,prookt_audio,195.83814229999552,197.17622959999426,y,1.3380872999987332
118,doppel_audio,197.68926590000046,198.57685440000205,y,0.8875885000015842
119,verke_audio,199.08597539999755,200.17660249999608,y,1.0906270999985281
120,nammer_audio,200.7003476999962,201.7605573000037,y,1.0602096000075107
121,bluit_audio,202.2801873999997,203.30409930000314,y,1.0239119000034407
122,kiemeten_audio,203.81241260000388,204.92750580000575,y,1.1150932000018656
123,vebras_audio,205.4744517000072,206.99070880000363,y,1.5162570999964373
124,kabrieken_audio,207.5083098000032,208.70046409999486,y,1.192154299991671
125,zelijk_audio,209.22411910000665,210.58925910000107,m,1.365139999994426
126,sluinen_audio,211.10463610000443,212.11588949999714,y,1.011253399992711
127,kandola_audio,212.63568900000246,213.5571459000057,y,0.9214569000032498
128,grantel_audio,214.08834509999724,214.98085490000085,y,0.8925098000036087
129,bralat_audio,215.49959940000554,216.3171610999998,y,0.8175616999942577
130,rogenten_audio,216.8319116000057,217.73346380000294,y,0.9015521999972407
131,fradingo_audio,218.24671960000705,219.8126598999952,y,1.5659402999881422
132,gefruld_audio,220.34963979999884,221.8419278999936,y,1.4922880999947665
133,vrijk_audio,222.3776937000075,223.6330905000068,y,1.2553967999992892
134,vlorken_audio,224.15721220000705,225.40915069999755,y,1.2519384999905014
135,kumus_audio,225.9213643999974,227.20025140000507,y,1.2788870000076713
136,smaan_audio,227.72051709999505,228.83164119999856,y,1.111124100003508
137,glaf_audio,229.35014480000245,230.2325209999981,y,0.8823761999956332
138,stodeum_audio,230.7803208999976,231.7945713999943,y,1.014250499996706
139,murselein_audio,232.31317389999458,233.9045019000041,m,1.5913280000095256
140,kimensie_audio,234.42730880000454,234.70718990000023,m,0.27988109999569133
141,gardien_audio,235.22781039999973,236.5369664000027,m,1.3091560000029858
142,rakot_audio,237.05783299999894,238.40787019999698,m,1.3500371999980416
143,ant_audio,238.9225718999951,240.4042472000001,y,1.4816753000050085
144,bezans_audio,240.94445700000506,242.0039187000075,y,1.05946170000243
145,gewunnen_audio,242.51844879999408,244.02882219999447,m,1.5103734000003897
146,kuukt_audio,244.5494034000003,245.6107944999967,y,1.0613910999963991
147,kadders_audio,246.1306207000016,246.88355880000745,y,0.7529381000058493
148,leumen_audio,247.39686300000176,248.36398290000216,y,0.967119900000398
149,knaarde_audio,248.87708010000642,249.9330861000053,y,1.056005999998888
150,plirken_audio,250.4602842000022,251.4051538000058,y,0.9448696000035852
151,grede_audio,251.92358299999614,253.1717753999983,y,1.2481924000021536
152,entel_audio,253.68920480000088,254.73238080000738,y,1.043176000006497
153,gefaapt_audio,255.25339379999787,256.2605016000016,y,1.0071078000037232
154,pals_audio,256.7684205999976,257.8154874000029,m,1.0470668000052683
155,loedsels_audio,258.3540554000065,259.8668098000053,y,1.512754399998812
156,udel_audio,260.38214669999434,261.6102552999946,y,1.2281086000002688
157,rufel_audio,262.1280969000072,263.5927828999993,y,1.4646859999920707
158,rastel_audio,264.10966129999724,265.0735752000037,y,0.9639139000064461
159,jaat_audio,265.59238899999764,266.5228608000034,y,0.9304718000057619
160,gietsen_audio,267.042020199995,268.20155690000684,y,1.159536700011813
161,gebeikt_audio,268.7227023000014,269.84911910000665,y,1.126416800005245
162,plond_audio,270.3701994000003,271.36143590000574,y,0.9912365000054706
163,snoen_audio,271.8845161000063,272.79394930000126,y,0.9094331999949645
164,tombel_audio,273.33716929999355,274.4176759999973,y,1.0805067000037525
165,mijk_audio,274.9310967000056,275.8261232999939,y,0.8950265999883413
166,pectars_audio,276.3472522999946,277.3140037999983,y,0.9667515000037383
167,stiraal_audio,277.85408160000225,278.96958659999655,y,1.1155049999943003
168,plin_audio,279.5095973999996,280.5386986999947,y,1.0291012999950908
169,moksen_audio,281.0594431000063,282.2168415000051,y,1.1573983999987831
170,glijp_audio,282.73847539999406,283.70526780000364,y,0.9667924000095809
171,vlump_audio,284.2202282000071,285.1217026999948,y,0.9014744999876712
172,klaap_audio,285.63453039999877,286.4906545999984,y,0.8561241999996128
173,bluurde_audio,287.0000662999955,287.8196731000062,y,0.8196068000106607
174,nergen_audio,288.3313424999942,289.0131493999943,y,0.6818069000000833
175,kwarp_audio,289.5310273000068,290.23194919999514,y,0.700921899988316
176,rons_audio,290.74921199999517,291.40045299999474,y,0.6512409999995725
177,gimmel_audio,291.91109409999626,292.78527219999523,y,0.8741780999989714
178,monen_audio,293.292807299993,293.96002600000065,y,0.6672187000076519
179,kijs_audio,294.4752670000016,295.1092345999932,y,0.6339675999915926
180,herken_audio,295.62461689999327,296.39798360000714,y,0.7733667000138666
181,hormen_audio,296.9054466999951,297.60741500000586,y,0.7019683000107761
182,zuun_audio,298.1190634999948,298.8727663000027,y,0.7537028000078863
183,rieve_audio,299.38553280000633,300.22577429999365,y,0.8402414999873145
184,drintels_audio,300.73483000000124,301.45898369999486,y,0.7241536999936216
185,brad_audio,301.9661049999995,302.6456274999946,y,0.6795224999950733
186,gevupt_audio,303.1651426000026,303.9733646999957,y,0.8082220999931451
187,klaam_audio,304.4971472000034,305.2783888999984,y,0.7812416999950074
188,trorg_audio,305.79488790000323,306.4878289000044,y,0.6929410000011558
189,ploe_audio,307.0102997000067,307.6811061000044,y,0.670806399997673
190,darboen_audio,308.19282830000157,308.2454788000032,y,0.05265050000161864
191,megen_audio,308.76302769999893,308.80830000000424,y,0.04527230000530835
192,nef_audio,309.34764890000224,309.3872818999953,y,0.039632999993045814
193,pruit_audio,309.90840509999543,309.94696580000164,y,0.03856070000620093
194,pirrel_audio,310.4580183999933,310.7867044000013,y,0.3286860000080196
195,rokan_audio,311.3060368000006,311.31553550000535,y,0.00949870000476949
196,zerder_audio,311.8379649999988,311.90200560000085,y,0.06404060000204481
197,snarpen_audio,312.4211065999989,312.5809784000012,y,0.15987180000229273
198,spodiel_audio,313.10405910000554,313.30062460000045,y,0.1965654999949038
199,fankel_audio,313.81967909999366,313.9986080999952,y,0.17892900000151712
